Folder: gird2020/Рассчеты/Openrocket/date files

File: tga.csv
41.589
118.75
123.66
123.58
123.97
124.11
124.55
126.22
127.9
131.01
134.17
137.92
135.77
136.9
137.26
138.8
138.24
137.14
135.88
135.16
134.31
132.74
130.09
128.9
108.32
76.15
60.986
49.366
31.464
20.595
14.594
7.4233
4.1607
1.5074
0
0
0
0
0
0
0
0
0
0
0
0
0
0
0
0
0
0
0
0
0
0
0
0
0
0
0
0
0
0
0
0
0
0
0
0
0
0
0
0
0
0
0
0
0
0
0
0
0
0
0
0
0
0
0
0
0
0
0
0
0
0
0
0
0
0
0
0
0
0
0
0
0
0
0
0
0
0
0
0
0
0
0
0
0
0
0
0
0
0
0
0
0
0
0
0
0
0
0
0
0
0
0
0
0
0
0
0
0
0
0
0
0
0
0
0
0
0
0
0
0
0
0
0
0
0
0
0
0
0
0
0
0
0
0
0
0
0
0
0
0
0
0
0
0
0
0
0
0
0
0
0
0
0
0
0
0
0
0
0
0
0
0
0
0
0
0
0
0
0
0
0
0
0